ax,ay,az,gx,gy,gz
-0.072,-0.030,1.172,-1.580,0.504,-2.069
-0.073,-0.027,1.178,-1.473,-0.580,-1.947
-0.072,-0.030,1.173,-1.405,-0.130,-2.214
-0.072,-0.039,1.170,-1.626,0.489,-2.099
-0.073,-0.029,1.168,-1.313,0.260,-2.137
-0.067,-0.025,1.177,-1.786,0.122,-2.321
-0.069,-0.035,1.171,-1.282,0.382,-1.969
-0.073,-0.031,1.167,-1.573,0.466,-2.191
-0.072,-0.031,1.171,-1.649,0.641,-2.122
-0.070,-0.026,1.170,-1.366,0.634,-1.947
-0.072,-0.025,1.164,-1.656,0.160,-2.153
-0.071,-0.032,1.173,-1.244,0.496,-2.069
-0.075,-0.029,1.169,-1.137,0.305,-1.954
-0.081,-0.031,1.167,-1.267,0.328,-2.015
-0.073,-0.029,1.163,-1.382,0.298,-2.076
-0.074,-0.035,1.171,-1.710,0.260,-2.153
-0.067,-0.032,1.178,-1.359,0.473,-2.015
-0.071,-0.032,1.174,-1.634,0.176,-2.160
-0.075,-0.035,1.170,-1.748,0.275,-2.191
-0.078,-0.027,1.173,-1.603,0.336,-2.130
-0.068,-0.031,1.165,-1.282,0.061,-1.954
-0.075,-0.034,1.168,-1.580,0.397,-2.221
-0.065,-0.030,1.167,-1.374,0.038,-2.214
-0.074,-0.035,1.171,-1.534,0.412,-2.176
-0.068,-0.027,1.170,-1.603,0.382,-2.092
-0.074,-0.035,1.173,-1.382,0.260,-2.061
0.045,-0.003,1.001,-6.931,14.733,-2.153
0.013,-0.068,1.100,-3.847,15.130,-1.473
-0.148,-0.053,1.167,-1.511,-2.679,-2.137
-0.049,-0.038,1.182,-2.496,9.748,-2.069
0.282,0.050,1.357,-6.702,-32.893,-19.969
0.555,-0.212,0.982,5.847,25.565,-67.237
0.148,0.091,1.304,12.130,10.702,-105.450
-0.238,0.366,1.333,15.099,-4.977,-113.885
-0.566,-0.259,0.826,-14.282,14.901,-1.519
-0.170,-0.143,1.117,-4.763,2.595,25.466
-0.229,0.019,1.143,-3.313,8.275,7.550
-0.058,-0.128,1.247,-5.229,36.573,13.893
-0.301,0.016,1.260,-0.359,-5.924,18.466
0.075,-0.065,1.139,2.053,-5.679,11.481
0.082,0.085,0.700,2.817,19.221,34.588
-0.195,0.064,1.245,13.153,-8.908,26.550
-0.636,0.140,1.090,1.931,-55.015,61.496
-0.405,0.081,1.037,-3.992,-23.137,96.710
-0.465,0.005,1.240,3.641,-11.137,137.443
-0.106,-0.266,1.365,21.427,11.229,124.802
0.286,-0.471,1.467,58.740,42.947,78.878
0.223,-0.374,1.649,83.382,29.435,34.504
0.124,-0.156,1.320,93.649,-1.817,19.893
0.133,0.061,1.175,97.870,10.305,2.328
-0.017,0.137,1.223,99.252,16.244,0.160
-0.105,0.185,1.208,104.794,11.443,5.969
-0.088,0.138,0.954,100.260,54.183,11.145
-0.194,0.207,1.100,91.160,122.336,17.351
-0.308,0.264,1.098,78.786,143.985,32.298
-0.344,0.264,1.181,73.214,137.931,41.588
-0.355,0.258,1.224,76.687,131.336,39.298
-0.254,0.185,0.942,78.710,161.137,34.962
-0.357,0.180,0.985,55.916,250.130,28.069
-0.591,0.159,0.799,11.931,250.130,16.718
-0.845,0.072,0.810,-3.733,250.130,-8.656
-0.812,0.194,0.898,-3.573,250.130,-39.611
-0.790,0.187,1.001,-0.496,250.130,-58.786
-0.683,0.210,1.048,-4.389,250.130,-62.534
-0.681,0.238,1.307,-12.084,250.130,-57.191
-0.568,0.248,1.043,-21.084,250.130,-51.038
-0.590,0.189,0.847,-28.053,250.130,-48.878
-0.779,0.240,0.571,-38.237,250.130,-43.687
-1.034,0.184,0.328,-47.244,250.130,-48.183
-1.276,0.125,0.215,-43.870,250.130,-63.405
-1.361,0.054,0.145,-20.542,250.130,-89.260
-1.374,0.021,0.245,15.344,250.130,-114.985
-1.400,0.074,0.260,42.160,250.130,-130.145
-1.375,0.146,0.333,57.832,250.130,-139.634
-1.294,0.217,0.371,59.878,250.130,-142.664
-1.250,0.116,0.327,54.427,250.130,-152.099
-1.031,0.066,0.393,50.198,250.130,-159.573
-0.789,0.156,0.434,37.817,250.130,-147.595
-0.672,0.130,0.324,19.229,200.000,-122.168
-0.641,0.033,0.181,-0.458,126.206,-102.031
-0.587,-0.002,-0.020,-26.305,82.626,-85.458
-0.690,-0.040,-0.096,-52.504,76.763,-71.634
-0.854,0.004,-0.162,-75.076,70.824,-53.618
-0.930,-0.013,-0.123,-96.863,77.038,-38.008
-1.011,0.013,-0.069,-121.511,60.344,-31.038
-1.073,0.014,-0.182,-146.893,34.183,-30.290
-1.174,-0.074,-0.198,-164.878,22.893,-35.580
-1.190,-0.114,-0.261,-173.855,25.847,-42.305
-1.234,-0.050,-0.265,-170.977,3.824,-49.718
-1.218,-0.081,-0.348,-167.901,0.832,-59.840
-1.163,-0.100,-0.298,-162.603,-2.580,-75.756
-1.049,-0.091,-0.370,-151.374,-19.450,-89.565
-1.010,-0.082,-0.341,-137.298,-25.221,-95.702
-0.933,-0.109,-0.371,-117.580,-35.321,-94.458
-0.839,-0.157,-0.370,-98.015,-37.206,-89.565
-0.736,-0.147,-0.391,-79.145,-31.656,-85.580
-0.706,-0.118,-0.356,-62.840,-36.542,-77.282
-0.692,-0.101,-0.383,-50.092,-37.962,-65.557
-0.657,-0.134,-0.331,-37.908,-32.702,-56.176
-0.635,-0.172,-0.303,-29.374,-32.076,-53.489
-0.687,-0.200,-0.192,-20.084,-47.725,-56.580
-0.783,-0.187,-0.129,-14.855,-84.359,-61.298
-0.809,-0.241,-0.125,-13.229,-124.466,-74.084
-0.742,-0.257,-0.226,-11.298,-144.855,-96.305
-0.722,-0.225,-0.177,-5.649,-172.038,-115.160
-0.712,-0.223,-0.135,5.099,-218.382,-125.328
-0.638,-0.220,-0.142,14.183,-250.137,-132.321
-0.622,-0.250,-0.073,26.191,-250.137,-138.893
-0.580,-0.261,-0.221,36.817,-250.137,-150.435
-0.658,-0.343,-0.077,48.763,-250.137,-155.351
-0.671,-0.533,-0.031,72.092,-250.137,-151.718
-0.715,-0.500,0.279,103.206,-250.137,-150.275
-0.640,-0.563,-0.061,131.840,-250.137,-156.450
-0.641,-0.590,0.113,156.908,-250.137,-167.870
-0.488,-0.515,0.279,175.198,-250.137,-167.069
-0.454,-0.394,0.420,185.374,-250.137,-149.160
-0.373,-0.366,0.429,188.115,-250.137,-127.328
-0.500,-0.345,0.612,181.626,-250.137,-97.588
-0.536,-0.351,0.700,179.786,-250.137,-82.107
-0.480,-0.349,0.695,178.748,-250.137,-80.389
-0.546,-0.424,0.850,182.267,-250.137,-81.183
-0.516,-0.450,0.910,192.779,-250.137,-74.893
-0.550,-0.406,0.949,204.290,-250.137,-69.031
-0.461,-0.350,0.800,212.359,-250.137,-66.985
-0.416,-0.270,1.011,221.832,-250.137,-76.214
-0.333,-0.305,0.974,235.466,-250.137,-94.191
-0.228,-0.238,1.063,248.321,-250.137,-110.130
-0.008,-0.148,0.939,250.130,-250.137,-113.046
0.203,-0.048,0.971,250.130,-250.137,-101.137
0.352,-0.009,0.990,243.313,-250.137,-84.115
0.454,0.053,1.001,231.565,-250.137,-68.458
0.501,0.105,0.961,223.908,-250.137,-57.382
0.535,0.117,0.969,209.405,-250.137,-51.183
0.657,0.186,0.979,199.053,-250.137,-51.405
0.662,0.355,0.890,184.840,-250.137,-50.489
0.697,0.313,0.792,170.321,-250.137,-52.809
0.797,0.226,0.745,158.031,-250.137,-62.031
0.890,0.233,0.702,149.885,-250.137,-65.977
0.976,0.229,0.780,137.313,-250.137,-69.504
0.954,0.413,0.666,119.389,-250.137,-66.298
1.047,0.437,0.615,90.321,-250.137,-57.267
1.135,0.449,0.418,69.237,-250.137,-45.855
1.134,0.486,0.442,52.237,-250.137,-25.870
1.085,0.426,0.295,50.229,-250.137,-21.031
1.061,0.466,-0.050,56.679,-250.137,-32.290
1.147,0.312,0.159,54.252,-250.137,-10.992
1.241,0.255,-0.240,56.458,-250.137,-38.229
1.201,0.354,-0.050,42.305,-210.053,0.931
1.223,0.391,-0.082,27.359,-167.924,5.710
1.080,0.396,-0.011,14.069,-140.725,40.603
1.138,0.454,0.051,-4.214,-108.122,57.824
1.127,0.454,0.034,-18.107,-101.221,73.550
1.026,0.400,-0.045,-28.099,-75.969,89.336
0.950,0.361,-0.094,-38.145,-44.580,98.458
0.890,0.377,-0.191,-42.344,-25.771,103.740
0.858,0.329,-0.227,-44.573,12.053,110.267
0.823,0.281,-0.130,-40.511,25.061,110.412
0.885,0.334,-0.191,-37.985,27.908,104.427
0.901,0.380,0.027,-38.298,7.000,110.260
1.003,0.258,0.011,-36.229,-20.084,120.153
1.002,0.178,-0.056,-41.122,14.115,145.405
0.943,0.160,0.040,-44.656,37.779,159.740
0.990,0.075,0.104,-44.160,52.832,172.550
1.105,0.039,0.139,-44.733,86.252,183.061
1.160,0.050,0.049,-51.504,126.290,200.969
1.165,-0.105,0.029,-49.229,147.679,213.557
1.042,-0.029,0.085,-50.084,150.214,215.664
0.993,-0.079,0.094,-47.603,127.076,207.206
0.883,-0.109,0.052,-41.290,95.405,207.031
0.928,-0.257,-0.003,-35.412,111.244,210.832
0.918,-0.299,-0.056,-35.779,135.885,201.198
0.804,-0.386,-0.124,-48.092,201.237,221.427
0.894,-0.400,-0.042,-54.374,250.130,215.863
0.789,-0.318,-0.033,-57.565,250.130,237.153
0.624,-0.331,-0.073,-39.466,227.679,227.328
0.719,-0.620,-0.033,-16.191,230.664,221.664
0.679,-0.632,0.056,8.481,220.443,197.176
0.728,-0.595,0.110,26.855,213.618,180.145
0.693,-0.608,0.214,41.260,213.229,165.847
0.664,-0.660,0.355,54.076,207.664,149.031
0.634,-0.705,0.460,56.069,183.565,137.786
0.632,-0.778,0.638,48.267,160.015,128.702
0.688,-0.739,0.550,35.931,150.534,116.061
0.693,-0.700,0.640,24.992,146.130,97.260
0.681,-0.699,0.648,12.252,134.015,82.489
0.683,-0.732,0.626,4.992,123.191,81.221
0.706,-0.798,0.570,3.237,128.893,85.183
0.683,-0.650,0.602,6.336,141.725,92.511
0.678,-0.662,0.582,10.405,160.954,103.397
0.653,-0.672,0.562,18.099,188.740,117.947
0.530,-0.638,0.552,27.603,216.328,141.145
0.409,-0.665,0.495,39.344,245.901,164.794
0.248,-0.744,0.578,57.183,250.130,174.359
0.195,-0.769,0.565,78.847,250.130,178.687
0.034,-0.771,0.639,90.573,250.130,181.092
-0.075,-0.724,0.694,93.863,250.130,186.015
-0.156,-0.651,0.794,96.893,250.130,185.618
-0.144,-0.602,0.857,105.679,250.130,176.313
-0.163,-0.587,0.926,111.679,250.130,162.557
-0.246,-0.555,1.011,107.321,250.130,156.679
-0.411,-0.610,1.075,90.305,250.130,153.969
-0.503,-0.535,0.963,68.534,250.130,149.229
-0.616,-0.509,0.848,62.847,250.130,141.122
-0.692,-0.515,0.784,71.366,250.130,131.084
-0.752,-0.505,0.752,82.679,250.130,121.443
-0.857,-0.517,0.764,90.565,250.130,113.771
-0.931,-0.445,0.723,96.153,250.130,104.237
-1.012,-0.369,0.717,107.374,245.809,88.298
-1.045,-0.400,0.788,115.924,243.679,69.038
-1.023,-0.357,0.828,117.565,233.099,50.290
-1.005,-0.307,0.854,114.893,210.542,36.725
-0.956,-0.315,0.929,114.885,192.504,30.122
-0.899,-0.317,0.984,110.198,186.427,28.878
-0.866,-0.301,0.982,94.977,184.229,33.031
-0.838,-0.293,0.862,75.473,196.420,39.969
-0.999,-0.280,1.017,60.191,211.153,43.122
-0.879,-0.272,0.467,75.916,225.466,56.664
-0.906,-0.243,0.497,84.000,230.061,70.595
-0.915,-0.229,0.480,85.817,225.977,82.992
-0.989,-0.169,0.380,89.542,220.153,87.718
-1.050,-0.170,0.357,94.656,210.519,85.046
-1.074,-0.131,0.312,100.710,199.885,82.779
-1.086,-0.109,0.342,109.344,190.718,77.229
-1.111,-0.089,0.328,110.366,187.534,67.908
-1.174,-0.131,0.292,107.031,189.603,52.000
-1.211,-0.090,0.191,100.344,198.519,33.550
-1.239,-0.081,0.264,90.382,207.557,14.481
-0.999,-0.019,0.191,73.466,213.183,20.779
-0.975,0.010,0.229,44.748,210.145,33.282
-1.035,-0.094,-0.083,59.412,195.870,26.221
-1.071,-0.140,-0.192,81.176,180.313,13.672
-1.114,-0.181,-0.230,104.947,169.344,0.649
-1.232,-0.107,-0.222,113.008,174.992,-20.824
-1.204,-0.072,-0.238,111.511,184.679,-51.137
-1.129,-0.058,-0.219,94.389,204.473,-85.580
-0.950,-0.278,-0.227,78.137,199.023,-111.863
-0.715,-0.317,-0.196,69.069,199.885,-122.221
-0.684,-0.167,-0.188,57.382,200.992,-119.145
-0.703,-0.107,-0.284,42.290,188.908,-114.534
-0.661,-0.214,-0.331,33.137,167.947,-116.603
-0.663,-0.298,-0.464,31.908,128.450,-117.786
-0.725,-0.302,-0.581,37.870,95.992,-124.901
-0.741,-0.341,-0.689,57.489,90.573,-139.718
-0.761,-0.369,-0.686,86.870,114.511,-157.847
-0.780,-0.420,-0.641,110.542,127.344,-175.450
-0.760,-0.445,-0.555,125.725,112.076,-197.153
-0.611,-0.383,-0.463,137.702,70.611,-219.374
-0.479,-0.427,-0.450,149.794,33.130,-237.847
-0.339,-0.440,-0.388,165.031,1.420,-242.099
-0.271,-0.466,-0.379,171.794,-18.046,-227.565
-0.279,-0.595,-0.282,173.130,-38.458,-211.763
-0.214,-0.658,-0.227,173.718,-64.527,-208.832
-0.194,-0.635,-0.130,167.458,-91.336,-211.924
-0.281,-0.744,-0.112,156.710,-121.092,-218.603
-0.287,-0.811,-0.121,140.084,-146.702,-229.405
-0.317,-0.867,-0.040,120.603,-200.840,-242.298
-0.254,-0.809,0.001,105.908,-250.137,-250.137
-0.179,-0.821,-0.041,100.122,-250.137,-250.137
-0.122,-0.919,-0.051,100.137,-250.137,-250.137
-0.027,-0.985,-0.005,101.290,-250.137,-236.656
0.062,-0.966,0.026,87.618,-250.137,-209.076
0.117,-0.972,0.112,74.382,-250.137,-181.466
0.093,-1.000,0.239,70.733,-250.137,-162.427
0.048,-0.952,0.163,70.191,-250.137,-151.450
0.033,-0.886,0.068,66.832,-250.137,-145.504
0.035,-0.804,0.092,61.939,-250.137,-139.702
0.059,-0.874,0.109,61.076,-250.137,-133.214
0.061,-0.989,0.194,61.534,-250.137,-128.931
0.061,-1.025,0.247,59.046,-250.137,-121.176
0.097,-0.974,0.234,47.374,-250.137,-109.099
0.178,-0.835,0.164,34.679,-250.137,-88.069
0.242,-0.671,0.145,33.992,-250.137,-73.527
0.211,-0.756,0.212,47.397,-250.137,-74.351
0.140,-1.011,0.302,67.794,-250.137,-89.504
0.030,-1.122,0.364,75.626,-250.137,-106.985
-0.123,-1.229,0.361,52.969,-250.137,-114.603
0.004,-1.068,0.388,18.382,-250.137,-109.221
0.042,-0.922,0.385,-9.099,-250.137,-107.710
-0.039,-0.932,0.393,-30.519,-250.137,-116.450
-0.094,-0.998,0.336,-49.191,-250.137,-139.679
-0.031,-0.907,0.286,-69.275,-250.137,-170.008
0.096,-0.820,0.151,-88.191,-250.137,-186.069
0.324,-0.689,-0.003,-102.290,-250.137,-181.618
0.436,-0.796,-0.101,-103.595,-250.137,-173.168
0.418,-0.871,-0.160,-100.389,-250.137,-159.015
0.416,-0.905,-0.249,-96.427,-250.137,-142.244
0.461,-0.843,-0.268,-92.618,-250.137,-127.504
0.097,-0.896,-0.118,-92.496,-250.137,-114.901
0.572,-0.811,-0.534,-99.595,-250.137,-104.359
0.324,-0.893,-0.455,-103.344,-208.038,-117.992
0.271,-0.850,-0.501,-101.847,-186.595,-133.832
0.299,-0.772,-0.588,-103.099,-172.969,-153.237
0.361,-0.654,-0.566,-100.374,-169.695,-170.588
0.414,-0.597,-0.624,-97.176,-168.779,-181.313
0.534,-0.518,-0.656,-94.618,-160.374,-181.679
0.592,-0.458,-0.665,-94.718,-173.992,-164.527
0.675,-0.425,-0.800,-86.168,-166.153,-133.305
0.723,-0.457,-0.796,-64.328,-160.634,-105.076
0.626,-0.545,-0.750,-55.473,-121.137,-84.489
0.587,-0.595,-0.730,-52.985,-83.145,-74.672
0.475,-0.551,-0.652,-41.687,-97.534,-74.160
0.334,-0.577,-0.692,-39.756,-76.344,-89.084
0.261,-0.555,-0.653,-39.504,-64.221,-108.435
0.305,-0.476,-0.637,-42.603,-63.252,-125.611
0.340,-0.399,-0.672,-40.901,-56.580,-141.466
0.293,-0.351,-0.713,-34.611,-46.206,-154.779
0.210,-0.316,-0.704,-25.809,-47.252,-162.321
0.197,-0.300,-0.727,-21.481,-27.763,-162.061
-0.042,-0.452,-0.786,2.901,3.168,-161.550
0.433,-0.505,-0.694,44.626,0.237,-173.153
0.555,-0.380,-0.528,60.893,18.321,-178.611
0.700,-0.338,-0.420,66.145,12.198,-168.229
0.753,-0.335,-0.413,66.427,-9.565,-148.397
0.707,-0.338,-0.406,54.473,4.443,-127.573
0.603,-0.370,-0.332,38.359,17.130,-109.061
0.553,-0.429,-0.274,19.672,17.611,-95.695
0.573,-0.447,-0.265,1.489,2.183,-89.656
0.675,-0.417,-0.311,-15.802,-12.237,-90.969
0.698,-0.422,-0.374,-30.802,-25.847,-91.443
0.665,-0.385,-0.448,-43.298,-40.359,-92.672
0.624,-0.441,-0.539,-50.718,-43.000,-93.824
0.604,-0.436,-0.637,-52.649,-35.649,-93.382
0.600,-0.389,-0.666,-49.260,-30.336,-89.137
0.668,-0.322,-0.635,-42.038,-36.733,-81.832
0.710,-0.287,-0.578,-42.924,-39.115,-77.298
0.726,-0.240,-0.647,-49.397,-47.176,-70.473
0.688,-0.258,-0.635,-52.595,-56.573,-60.168
0.661,-0.177,-0.670,-61.275,-55.191,-46.450
0.618,-0.112,-0.709,-66.878,-48.221,-35.725
0.546,-0.066,-0.873,-67.473,-30.405,-28.412
0.399,-0.104,-0.855,-54.336,-10.061,-29.153
0.217,-0.181,-1.002,-27.863,35.557,-40.580
0.138,-0.290,-1.172,15.198,93.649,-60.214
0.160,-0.314,-1.189,67.214,138.336,-78.298
0.319,-0.227,-1.011,114.282,166.924,-87.924
0.408,-0.106,-0.705,138.221,190.321,-92.824
0.476,-0.057,-0.444,137.504,200.198,-94.641
0.546,-0.060,-0.293,119.534,201.275,-94.115
0.612,-0.120,-0.192,98.595,198.153,-95.794
0.778,-0.123,-0.149,80.931,184.611,-101.229
0.913,-0.117,-0.138,68.321,169.046,-108.031
0.950,-0.148,-0.158,61.168,148.962,-114.107
0.942,-0.163,-0.236,60.580,136.328,-120.557
0.886,-0.131,-0.285,62.290,133.870,-127.450
0.816,-0.089,-0.321,69.710,144.802,-133.779
0.802,-0.078,-0.322,82.588,162.924,-139.344
0.839,-0.098,-0.234,95.267,182.252,-140.924
0.974,-0.125,-0.213,103.885,201.939,-138.214
1.066,-0.069,-0.232,117.038,240.824,-127.962
1.066,0.021,-0.210,136.603,250.130,-113.031
1.045,0.062,-0.177,151.786,250.130,-90.282
1.057,0.007,-0.072,162.214,250.130,-66.374
1.001,0.059,0.074,164.305,250.130,-37.252
0.926,0.052,0.247,155.947,250.130,-4.344
0.837,-0.078,0.535,135.519,250.130,26.206
0.787,0.056,0.791,105.061,250.130,33.580
0.634,0.047,1.032,64.122,250.130,25.779
0.702,-0.018,1.006,38.038,250.130,-2.176
0.576,-0.071,1.102,14.840,250.130,-29.527
0.582,-0.067,1.156,-4.099,250.130,-49.611
0.649,-0.031,1.191,-17.565,250.130,-62.237
0.675,0.024,1.170,-19.863,250.130,-66.702
0.655,0.052,1.163,-16.168,250.130,-63.282
0.707,0.097,1.154,-6.855,250.130,-58.786
0.677,0.018,1.208,2.473,250.130,-53.908
0.646,-0.005,1.266,7.733,250.130,-48.702
0.637,-0.000,1.292,14.000,250.130,-41.695
0.507,0.011,1.288,12.756,250.130,-35.885
0.343,0.052,1.316,3.832,250.130,-27.069
0.243,0.026,1.323,-10.412,250.130,-18.771
0.195,-0.025,1.341,-22.664,250.130,-11.992
0.045,-0.004,1.337,-30.221,250.130,-16.496
-0.077,0.055,1.398,-49.679,250.130,-25.786
-0.061,-0.020,1.438,-67.191,250.130,-35.847
-0.098,-0.113,1.377,-73.641,250.130,-36.534
-0.277,-0.109,1.406,-89.779,250.130,-29.863
-0.449,-0.088,1.389,-112.878,250.130,-34.344
-0.603,-0.149,1.321,-132.336,250.130,-43.061
-0.656,-0.089,1.229,-147.137,250.130,-49.832
-0.599,-0.084,1.096,-152.206,250.130,-56.939
-0.552,-0.158,1.005,-145.038,250.130,-59.046
-0.546,-0.246,0.960,-136.252,250.130,-53.137
-0.623,-0.285,0.897,-133.244,250.130,-42.802
-0.642,-0.284,0.851,-135.450,250.130,-29.832
-0.702,-0.373,0.826,-138.489,250.130,-21.122
-0.754,-0.345,0.710,-140.145,250.130,-19.290
-0.780,-0.358,0.666,-140.389,250.130,-24.282
-0.773,-0.358,0.605,-139.084,250.130,-30.710
-0.769,-0.333,0.501,-139.481,250.130,-36.618
-0.832,-0.362,0.497,-132.565,250.130,-39.412
-0.809,-0.324,0.365,-124.046,250.130,-38.084
-0.857,-0.380,0.308,-115.969,250.130,-37.443
-0.833,-0.358,0.235,-108.649,250.130,-38.168
-0.783,-0.314,0.195,-103.985,250.130,-45.557
-0.770,-0.317,0.180,-103.145,250.130,-49.878
-0.729,-0.327,0.129,-103.550,248.550,-53.924
-0.676,-0.367,0.056,-102.840,226.473,-56.710
-0.668,-0.362,0.044,-100.099,213.160,-56.252
-0.616,-0.296,0.002,-92.221,187.298,-54.489
-0.570,-0.254,-0.065,-81.847,148.985,-44.427
-0.515,-0.258,-0.080,-67.382,109.916,-23.153
-0.588,-0.363,-0.067,-53.290,70.092,2.061
-0.711,-0.407,-0.065,-45.718,26.565,22.710
-0.791,-0.367,-0.065,-43.641,-15.756,39.771
-0.844,-0.310,-0.067,-41.779,-46.817,59.198
-0.879,-0.304,-0.023,-35.634,-80.374,80.069
-0.923,-0.279,0.051,-28.244,-132.191,95.595
-0.973,-0.212,0.094,-12.290,-173.534,84.618
-1.012,-0.210,0.132,8.458,-210.718,60.763
-1.026,-0.265,0.341,32.084,-250.137,36.969
-1.002,-0.328,0.392,52.252,-250.137,20.298
-0.951,-0.288,0.455,63.206,-250.137,17.023
-0.926,-0.196,0.524,67.748,-250.137,22.015
-0.797,-0.219,0.452,84.191,-250.137,43.580
-0.709,-0.431,0.355,125.130,-250.137,72.656
-0.637,-0.198,0.798,108.908,-164.023,100.282
-0.808,-0.051,0.836,82.824,-82.473,127.702
-0.816,-0.134,0.824,56.313,-73.229,143.763
-0.741,-0.207,0.770,47.397,-87.130,151.840
-0.741,-0.163,0.697,49.176,-124.046,162.969
-0.814,-0.073,0.508,54.023,-149.855,158.992
-0.865,-0.015,0.601,66.130,-166.863,143.481
-0.907,-0.026,0.613,73.252,-193.435,134.000
-0.879,-0.024,0.606,81.160,-221.527,125.511
-0.856,0.047,0.578,94.405,-208.099,110.252
-0.872,0.065,0.627,105.099,-180.779,93.588
-0.845,0.079,0.710,110.344,-183.160,87.489
-0.760,0.024,0.799,118.550,-188.015,85.107
-0.739,0.013,0.972,119.359,-199.008,72.878
-0.713,0.052,1.140,102.695,-249.092,54.344
-0.590,0.005,1.229,82.573,-250.137,37.870
-0.383,-0.012,1.230,64.031,-250.137,22.534
-0.195,0.056,1.237,46.260,-250.137,19.069
-0.080,0.130,1.183,35.412,-250.137,38.573
-0.095,0.149,1.139,34.305,-250.137,67.649
-0.170,0.152,1.223,45.443,-250.137,97.916
-0.129,0.220,1.325,57.023,-250.137,112.405
-0.181,0.283,1.453,53.252,-250.137,109.832
-0.280,0.252,1.547,33.901,-250.137,95.931
-0.277,0.189,1.552,14.214,-250.137,76.710
-0.199,0.200,1.475,-0.611,-250.137,54.344
0.055,0.211,1.331,-5.695,-250.137,28.885
0.302,0.269,1.277,-10.389,-250.137,3.931
0.461,0.208,1.134,-5.733,-250.137,-4.992
0.620,0.141,1.098,4.740,-250.137,1.015
0.188,0.152,1.549,21.519,-250.137,19.344
0.818,0.023,0.812,51.725,-250.137,42.878
0.876,0.218,0.994,76.672,-250.137,60.710
0.915,0.256,0.909,90.344,-250.137,72.374
0.889,0.213,0.901,86.183,-250.137,78.527
0.918,0.165,0.805,81.015,-250.137,78.412
0.813,0.209,0.875,89.252,-250.137,69.282
0.895,0.325,0.441,96.710,-250.137,56.260
0.870,0.359,0.220,92.588,-250.137,50.664
0.781,0.336,0.395,72.000,-250.137,49.847
0.836,0.221,0.425,64.145,-250.137,42.160
0.971,0.211,0.494,49.275,-250.137,34.931
0.991,0.221,0.491,17.573,-185.756,39.740
0.981,0.164,0.359,-10.947,-129.618,38.626
0.990,0.201,0.202,-30.321,-107.924,38.809
1.040,0.155,0.100,-37.756,-128.137,34.664
1.085,0.187,0.027,-41.298,-159.366,32.557
1.080,0.147,0.022,-42.573,-186.718,32.611
1.052,0.143,0.017,-49.763,-195.595,33.382
1.011,0.165,-0.064,-62.290,-192.053,36.893
0.909,0.168,-0.149,-68.115,-191.160,40.618
0.886,0.245,-0.319,-66.496,-182.046,30.687
0.980,0.204,-0.455,-52.107,-169.832,29.817
0.980,0.169,-0.500,-32.634,-153.275,35.038
0.921,0.159,-0.583,-15.695,-130.679,39.763
0.850,0.111,-0.490,-6.153,-117.519,39.115
0.812,-0.016,-0.262,0.672,-129.061,27.885
0.935,-0.010,-0.108,-17.977,-159.603,17.191
1.103,0.068,-0.399,-38.389,-173.344,10.305
1.108,0.059,-0.556,-54.252,-164.221,25.847
0.989,0.068,-0.668,-31.748,-121.267,50.901
0.941,0.133,-0.811,-3.634,-70.817,77.992
0.819,0.052,-0.766,24.740,-30.244,94.725
0.767,0.031,-0.612,41.489,-2.947,100.962
0.769,0.012,-0.490,42.695,6.389,104.550
0.762,0.052,-0.446,37.305,17.260,102.344
0.779,0.087,-0.450,29.969,16.702,97.145
0.827,0.036,-0.488,28.489,12.595,88.832
0.952,-0.039,-0.399,30.061,-0.321,88.374
1.250,0.025,-0.389,27.809,-8.046,101.550
1.354,0.025,-0.384,23.748,-7.344,131.466
1.256,0.032,-0.408,20.718,4.214,168.901
1.090,0.069,-0.471,18.565,15.122,194.412
0.846,0.062,-0.506,20.214,26.977,196.939
0.699,0.074,-0.509,27.504,28.534,184.641
0.615,-0.071,-0.545,39.817,39.756,170.046
0.566,-0.172,-0.506,51.931,61.931,157.786
0.566,-0.229,-0.439,59.832,85.901,147.168
0.697,-0.236,-0.338,60.282,103.481,137.969
0.762,-0.276,-0.290,56.649,104.809,135.511
0.857,-0.256,-0.248,57.412,109.656,146.092
0.839,-0.265,-0.242,52.244,124.450,165.115
0.723,-0.237,-0.266,43.611,144.672,180.053
0.620,-0.337,-0.306,36.198,166.687,182.908
0.590,-0.353,-0.314,33.740,193.267,176.229
0.611,-0.434,-0.310,38.344,194.412,170.763
0.693,-0.526,-0.234,49.008,176.817,165.374
0.708,-0.536,-0.136,61.366,142.931,160.359
0.663,-0.588,0.038,64.611,124.908,154.870
0.615,-0.603,0.131,50.328,135.351,152.779
0.579,-0.640,0.072,27.885,171.771,152.191
0.593,-0.602,-0.026,8.046,216.366,156.275
0.597,-0.542,-0.143,0.221,210.702,161.878
0.549,-0.652,-0.207,12.664,202.885,159.244
0.499,-0.801,-0.168,36.053,201.870,149.534
0.470,-0.834,-0.072,56.702,207.275,136.565
0.444,-0.835,0.073,65.344,220.313,123.542
0.476,-0.854,0.138,63.282,250.130,117.504
0.466,-0.868,0.200,53.015,250.130,125.008
0.412,-0.896,0.205,43.153,250.130,134.099
0.417,-0.763,0.135,39.779,250.130,135.160
0.374,-0.713,0.094,47.718,250.130,134.580
0.343,-0.783,0.061,68.374,250.130,130.481
0.276,-0.811,0.200,92.802,250.130,126.206
0.244,-0.859,0.412,112.046,250.130,133.450
0.266,-0.783,0.521,118.092,250.130,146.229
0.184,-0.634,0.630,107.015,250.130,159.198
0.209,-0.646,0.754,99.893,250.130,165.046
-0.089,-0.619,0.893,81.069,250.130,177.611
-0.365,-0.707,0.827,62.000,250.130,162.473
-0.446,-0.702,0.729,52.786,250.130,140.473
-0.515,-0.729,0.715,45.176,250.130,122.229
-0.628,-0.759,0.751,33.053,250.130,108.450
-0.612,-0.849,0.666,24.855,250.130,96.511
-0.564,-0.830,0.668,27.252,250.130,90.206
-0.601,-0.776,0.656,31.748,250.130,87.115
-0.768,-0.848,0.639,30.664,250.130,75.947
-0.872,-0.846,0.592,26.855,250.130,56.725
-0.812,-0.844,0.548,33.359,250.130,42.000
-0.778,-0.848,0.551,43.954,250.130,17.855
-0.745,-0.837,0.580,55.061,250.130,9.466
-0.689,-0.815,0.651,57.282,250.130,4.679
-0.704,-0.831,0.780,49.863,173.656,-9.908
-0.562,-0.861,0.655,41.626,79.130,-20.305
-0.411,-0.783,0.547,36.733,82.611,-12.420
-0.427,-0.714,0.453,32.969,131.840,-1.710
-0.551,-0.753,0.425,29.252,150.084,8.924
-0.606,-0.743,0.371,27.855,142.863,9.229
-0.649,-0.846,0.402,35.382,111.290,6.427
-0.601,-0.680,0.402,52.176,49.931,-2.290
-0.535,-0.745,0.381,64.947,-13.931,-9.405
-0.547,-0.755,0.411,76.260,-58.802,-17.366
-0.577,-0.763,0.494,79.046,-83.802,-22.672
-0.549,-0.728,0.575,69.298,-89.802,-29.000
-0.523,-0.694,0.616,53.763,-95.137,-31.427
-0.516,-0.711,0.595,41.481,-101.664,-30.061
-0.531,-0.746,0.569,35.389,-119.710,-26.916
-0.544,-0.743,0.547,37.214,-161.107,-24.687
-0.581,-0.771,0.493,48.573,-171.748,-29.214
-0.656,-0.775,0.534,59.313,-138.634,-37.718
-0.603,-0.767,0.586,57.069,-69.489,-44.863
-0.604,-0.763,0.717,40.481,2.611,-42.321
-0.616,-0.768,0.767,15.427,28.908,-34.008
-0.568,-0.747,0.718,-7.290,20.290,-25.779
-0.566,-0.747,0.612,-19.023,7.763,-22.290
-0.550,-0.708,0.498,-17.634,12.069,-22.252
-0.527,-0.705,0.426,-9.878,30.092,-20.031
-0.489,-0.699,0.374,2.046,44.282,-9.107
-0.458,-0.702,0.326,12.985,47.107,-4.740
-0.460,-0.694,0.373,27.389,29.931,2.687
-0.437,-0.670,0.450,44.244,0.519,11.153
-0.434,-0.662,0.493,55.740,-30.817,16.359
-0.417,-0.645,0.516,59.878,-70.145,19.290
-0.391,-0.644,0.508,61.336,-113.672,21.916
-0.431,-0.697,0.537,67.786,-150.832,23.160
-0.516,-0.698,0.586,76.779,-155.939,18.809
-0.562,-0.691,0.652,77.916,-141.084,8.237
-0.545,-0.678,0.705,69.397,-134.817,-5.359
-0.486,-0.675,0.723,60.794,-149.015,-17.489
-0.376,-0.703,0.706,59.916,-182.969,-23.771
-0.252,-0.734,0.672,69.702,-224.275,-26.420
-0.216,-0.743,0.661,85.336,-250.137,-24.702
-0.244,-0.752,0.666,102.649,-250.137,-25.191
-0.292,-0.773,0.766,112.076,-250.137,-29.802
-0.354,-0.703,0.877,116.603,-250.137,-39.328
-0.455,-0.754,1.031,110.695,-250.137,-56.947
-0.519,-0.683,1.144,97.504,-250.137,-87.565
-0.532,-0.696,1.142,74.458,-250.137,-129.046
-0.432,-0.649,1.027,51.061,-250.137,-177.176
-0.249,-0.540,0.768,36.718,-250.137,-219.267
-0.056,-0.540,0.632,32.992,-250.137,-250.137
0.195,-0.585,0.443,42.122,-250.137,-250.137
0.537,-0.581,0.265,62.489,-250.137,-250.137
0.844,-0.595,0.257,81.412,-250.137,-240.672
0.981,-0.575,0.267,89.817,-250.137,-200.908
1.034,-0.506,0.235,85.794,-250.137,-168.000
1.036,-0.452,0.209,69.817,-250.137,-145.939
1.152,-0.328,0.081,52.176,-250.137,-132.725
1.177,-0.318,-0.077,47.473,-238.053,-120.420
1.121,-0.301,-0.158,60.366,-203.725,-104.802
1.194,-0.357,-0.281,86.565,-166.282,-102.099
0.923,-0.281,-0.106,112.588,-151.565,-108.244
0.825,-0.220,-0.071,134.794,-142.336,-129.679
0.765,-0.112,-0.042,148.107,-109.168,-153.916
0.758,-0.069,-0.150,159.489,-46.130,-174.573
0.602,-0.044,-0.170,182.282,21.023,-194.641
0.573,0.118,-0.054,201.191,60.435,-217.282
0.792,0.405,-0.055,210.649,84.412,-232.756
0.928,0.449,0.059,233.107,99.053,-236.412
0.988,0.510,0.349,250.130,97.260,-223.466
0.937,0.520,0.488,246.313,115.015,-206.840
0.791,0.509,0.568,217.366,126.878,-205.947
0.591,0.497,0.518,197.237,142.908,-216.244
0.504,0.462,0.697,188.458,161.435,-226.244
0.567,0.521,0.877,167.038,206.840,-237.557
0.577,0.560,1.059,127.824,250.130,-246.916
0.581,0.553,1.223,82.267,250.130,-250.137
0.584,0.655,1.373,40.076,250.130,-250.137
0.599,0.818,1.352,-1.252,250.130,-250.137
0.609,0.816,1.313,-32.473,250.130,-250.137
0.596,0.833,1.304,-54.702,250.130,-250.137
0.620,0.902,1.272,-73.221,250.130,-250.137
0.664,0.923,1.243,-83.847,250.130,-250.137
0.703,0.953,1.273,-87.069,250.130,-250.137
0.744,0.921,1.310,-93.351,244.252,-250.137
0.745,0.875,1.310,-102.763,209.992,-249.824
0.726,0.855,1.354,-112.061,164.992,-227.443
0.720,0.833,1.334,-127.328,141.145,-204.939
0.613,0.800,1.302,-142.496,139.748,-182.794
0.445,0.754,1.240,-154.908,150.458,-165.595
0.213,0.701,1.223,-161.786,158.191,-155.580
0.153,0.673,1.191,-170.588,163.885,-155.893
0.000,0.594,1.202,-178.618,169.435,-151.985
0.083,0.566,1.200,-189.229,165.496,-157.771
0.014,0.481,1.140,-198.794,171.427,-155.099
-0.143,0.365,1.073,-204.038,170.977,-150.321
-0.343,0.366,0.987,-204.863,171.550,-150.954
-0.598,0.325,0.987,-199.450,174.748,-173.824
-0.705,0.304,1.060,-197.618,165.679,-204.496
-0.648,0.296,1.083,-201.015,158.565,-234.221
-0.490,0.347,1.069,-207.969,160.824,-250.137
-0.415,0.323,1.017,-210.427,169.221,-250.137
-0.421,0.300,0.981,-204.847,181.908,-250.137
-0.520,0.232,1.060,-196.000,201.336,-250.137
-0.591,0.248,1.174,-196.931,225.435,-250.137
-0.552,0.279,1.102,-206.893,250.130,-250.137
-0.461,0.260,0.979,-212.924,250.130,-250.137
-0.390,0.090,0.927,-205.389,250.130,-250.137
-0.282,-0.102,0.858,-197.084,250.130,-250.137
-0.121,-0.199,0.816,-193.656,250.130,-250.137
0.067,-0.280,0.576,-190.099,250.130,-231.336
0.063,-0.454,0.387,-170.489,250.130,-195.725
-0.040,-0.582,0.325,-144.122,250.130,-152.924
-0.125,-0.591,0.244,-127.107,250.130,-109.672
-0.332,-0.669,0.142,-116.542,250.130,-82.214
-0.592,-0.616,0.030,-112.221,250.130,-74.672
-0.840,-0.656,-0.151,-104.725,240.947,-75.298
-0.889,-0.650,-0.300,-88.893,194.061,-77.237
-0.782,-0.646,-0.378,-61.908,169.809,-74.672
-0.674,-0.641,-0.222,-24.061,152.168,-60.107
-0.548,-0.753,0.004,12.992,105.649,-37.695
-0.428,-0.712,0.135,30.573,30.542,-7.634
-0.461,-0.632,0.203,38.145,-62.588,36.855
-0.661,-0.624,0.215,50.565,-145.832,78.672
-0.924,-0.606,0.256,62.244,-216.649,99.389
-1.072,-0.540,0.289,70.252,-250.137,101.443
-1.038,-0.538,0.402,81.733,-250.137,90.229
-0.837,-0.488,0.483,89.458,-250.137,72.382
-0.478,-0.480,0.458,95.672,-250.137,72.702
-0.174,-0.485,0.398,116.099,-250.137,105.496
-0.021,-0.386,0.416,151.115,-250.137,162.412
-0.189,-0.362,0.499,194.214,-250.137,216.527
-0.429,-0.208,0.716,222.992,-250.137,249.328
-0.607,-0.177,0.919,227.435,-250.137,250.130
-0.625,-0.168,1.092,225.206,-250.137,250.130
-0.593,-0.052,1.170,220.328,-250.137,249.786
-0.630,0.059,1.170,214.473,-250.137,221.824
-0.454,0.102,1.094,216.344,-250.137,191.740
-0.291,0.122,1.181,225.519,-250.137,163.939
-0.011,0.147,1.326,229.679,-250.137,143.740
0.178,0.278,1.512,225.687,-250.137,138.389
0.251,0.283,1.697,203.939,-250.137,136.740
0.250,0.275,1.853,157.702,-250.137,131.977
0.266,0.302,1.854,94.481,-250.137,120.901
0.375,0.325,1.760,36.954,-250.137,107.718
0.457,0.307,1.590,-14.229,-181.611,96.191
0.493,0.323,1.333,-47.557,-131.733,88.481
0.514,0.257,1.101,-58.588,-112.977,82.992
0.552,0.239,0.906,-46.962,-124.679,78.679
0.660,0.192,0.752,-19.244,-169.237,75.107
0.745,0.173,0.684,17.947,-230.885,71.229
0.802,0.115,0.654,54.634,-250.137,75.351
0.807,0.126,0.663,88.733,-250.137,75.641
0.850,0.197,0.740,112.893,-250.137,65.351
0.945,0.312,0.730,124.053,-250.137,44.443
1.089,0.288,0.768,115.969,-250.137,27.733
1.223,0.324,0.809,90.618,-238.603,25.481
1.233,0.287,0.810,56.832,-151.641,37.389
1.147,0.277,0.646,32.588,-113.122,44.878
1.015,0.274,0.515,28.344,-123.557,43.595
0.905,0.247,0.434,43.802,-153.740,36.985
0.882,0.223,0.359,63.992,-176.985,23.344
0.906,0.192,0.291,74.649,-195.672,3.145
1.018,0.257,0.221,77.626,-204.252,-17.939
1.048,0.250,0.265,79.496,-198.351,-35.710
1.150,0.413,0.328,86.000,-179.985,-60.824
1.265,0.219,0.405,80.550,-176.435,-54.489
1.287,0.206,0.434,70.504,-172.397,-42.321
1.206,0.264,0.444,61.916,-183.458,-35.412
1.166,0.302,0.319,53.786,-187.947,-30.550
1.145,0.188,0.251,49.336,-160.992,-26.458
1.146,0.259,0.166,50.351,-129.794,-22.443
1.118,0.165,0.113,54.511,-115.786,-13.069
1.135,0.212,0.012,57.061,-106.046,-7.122
1.141,0.244,-0.003,63.458,-99.565,-5.427
1.169,0.195,0.017,72.130,-125.076,-3.534
1.227,0.217,0.073,75.588,-150.214,1.618
1.245,0.217,0.101,67.115,-169.405,3.664
1.229,0.269,0.070,44.969,-183.679,5.489
1.199,0.159,0.035,21.260,-202.382,19.183
1.150,0.157,-0.170,8.794,-178.038,21.084
1.121,0.240,-0.218,12.588,-152.595,19.221
1.134,0.162,-0.307,24.275,-141.084,20.252
1.130,0.152,-0.313,42.519,-150.481,24.641
1.147,0.216,-0.322,61.344,-154.130,27.878
1.108,0.185,-0.232,74.679,-160.427,32.519
1.109,0.110,-0.141,80.496,-162.214,40.534
1.080,0.115,-0.087,75.153,-159.824,49.221
1.031,0.131,-0.072,66.260,-148.466,55.802
0.974,0.172,0.028,59.015,-151.328,58.870
0.956,0.269,-0.097,44.336,-161.168,63.031
0.909,0.060,-0.198,37.260,-148.962,65.275
0.852,-0.042,-0.054,45.443,-135.321,68.832
0.815,0.061,-0.080,47.794,-138.046,81.618
0.805,-0.022,-0.185,44.237,-124.702,91.511
0.779,-0.033,-0.194,50.015,-99.229,100.160
0.812,-0.013,-0.416,63.695,-68.137,112.832
0.736,0.002,-0.409,81.198,-28.802,127.206
0.617,0.074,-0.391,102.168,14.023,126.511
0.515,-0.097,-0.355,119.107,34.748,121.718
0.490,-0.093,-0.307,134.366,47.481,112.328
0.477,-0.292,-0.166,144.382,59.634,105.962
0.508,-0.281,-0.080,142.786,65.366,94.328
0.589,-0.267,-0.046,129.359,65.321,90.618
0.647,-0.346,-0.022,112.183,67.611,97.053
0.667,-0.287,-0.012,88.053,74.962,104.191
0.607,-0.277,-0.059,65.275,85.099,111.603
0.578,-0.332,-0.121,49.817,101.908,112.756
0.553,-0.419,-0.170,42.031,134.198,114.107
0.587,-0.481,-0.298,37.748,171.000,116.763
0.500,-0.491,-0.321,38.183,200.924,112.275
0.505,-0.502,-0.306,41.214,225.977,101.282
0.623,-0.554,-0.330,48.206,239.496,90.466
0.738,-0.562,-0.323,64.069,250.130,85.527
0.875,-0.614,-0.235,82.771,250.130,89.427
0.878,-0.580,-0.151,96.733,250.130,97.282
0.847,-0.596,-0.018,110.298,250.130,105.122
0.768,-0.633,0.143,109.802,245.893,106.321
0.819,-0.639,0.212,102.389,250.130,104.748
0.882,-0.637,0.299,88.206,250.130,113.908
0.986,-0.603,0.409,74.000,250.130,134.244
0.926,-0.551,0.413,55.038,250.130,155.260
0.625,-0.630,0.409,42.397,250.130,164.244
0.376,-0.743,0.352,46.244,250.130,161.763
0.179,-0.766,0.331,57.435,250.130,146.748
-0.003,-0.744,0.345,72.000,250.130,127.031
-0.094,-0.767,0.317,92.008,250.130,101.160
-0.106,-0.807,0.398,125.840,250.130,69.885
0.069,-0.785,0.589,163.573,250.130,42.137
0.217,-0.726,0.784,189.473,250.130,31.931
0.194,-0.652,1.004,192.588,250.130,33.901
0.146,-0.620,1.110,179.023,250.130,40.176
0.105,-0.543,1.193,149.595,250.130,41.611
0.050,-0.457,1.131,121.977,250.130,39.924
-0.077,-0.545,1.105,103.817,250.130,32.458
-0.149,-0.618,1.029,100.794,250.130,25.344
-0.311,-0.678,1.139,107.153,250.130,21.260
-0.022,-0.574,1.087,118.687,250.130,25.603
-0.077,-0.605,1.020,129.641,250.130,30.695
-0.138,-0.537,1.148,131.069,250.130,40.481
-0.271,-0.512,1.154,127.344,250.130,46.794
-0.345,-0.505,1.287,112.191,250.130,52.634
-0.421,-0.440,1.273,88.107,250.130,62.603
-0.508,-0.486,1.259,58.733,250.130,69.382
-0.619,-0.441,1.106,31.221,250.130,70.267
-0.636,-0.464,1.024,9.145,250.130,70.527
-0.731,-0.458,0.835,-0.504,250.130,74.130
-0.821,-0.519,0.701,-0.679,250.130,70.183
-0.901,-0.579,0.626,16.031,250.130,62.061
-0.900,-0.602,0.551,31.954,250.130,58.672
-0.990,-0.463,0.549,43.794,250.130,55.542
-1.041,-0.417,0.500,42.885,250.130,44.656
-1.053,-0.395,0.427,34.656,250.130,27.321
-1.002,-0.381,0.334,29.542,250.130,14.122
-0.885,-0.345,0.301,32.145,238.840,12.931
-0.853,-0.519,0.332,44.511,184.298,18.573
-0.871,-0.466,0.409,57.183,116.534,20.702
-0.911,-0.402,0.428,61.855,52.351,19.237
-0.947,-0.521,0.396,61.137,43.359,1.351
-0.929,-0.470,0.348,50.260,83.969,-15.710
-0.882,-0.408,0.355,29.931,117.641,-21.115
-0.880,-0.415,0.330,12.794,113.878,-21.153
-0.860,-0.436,0.283,3.321,87.656,-19.221
-0.865,-0.448,0.289,5.542,50.931,-15.840
-0.944,-0.472,0.390,10.893,-7.000,-13.779
-0.972,-0.433,0.489,8.969,-104.931,-14.565
-0.951,-0.426,0.427,6.237,-201.473,-18.206
-0.935,-0.485,0.423,12.137,-250.137,-25.321
-1.117,-0.472,0.502,24.290,-250.137,-40.901
-1.212,-0.403,0.650,39.160,-250.137,-65.794
-1.187,-0.463,0.724,42.901,-250.137,-103.122
-1.048,-0.466,0.777,36.969,-250.137,-135.588
-0.932,-0.474,0.839,22.176,-250.137,-156.313
-0.803,-0.500,0.838,9.183,-250.137,-169.824
-0.648,-0.510,0.798,0.977,-250.137,-177.115
-0.490,-0.465,0.750,5.214,-250.137,-176.405
-0.304,-0.504,0.689,14.924,-250.137,-170.206
-0.182,-0.541,0.677,26.466,-250.137,-162.092
-0.097,-0.499,0.649,39.527,-250.137,-153.076
-0.011,-0.498,0.789,51.038,-250.137,-150.656
